Time/us,Voltage/V
-562.0,-0.0163694
-561.52,-0.0169407
-561.04,-0.0167622
-560.5600000000001,-0.0170835
-560.0799999999999,-0.0166908
-559.6,-0.0171192
-559.12,-0.0173692
-558.6400000000001,-0.0171549
-558.16,-0.016976400000000003
-557.6800000000001,-0.016833599999999997
-557.2,-0.016833599999999997
-556.7199999999999,-0.017190599999999997
-556.24,-0.0169407
-555.76,-0.017190599999999997
-555.28,-0.0172978
-554.8,-0.0171549
-554.32,-0.017440599999999997
-553.84,-0.0172263
-553.36,-0.0171549
-552.88,-0.016619400000000003
-552.4,-0.0171549
-551.92,-0.0172978
-551.4399999999999,-0.0169407
-550.96,-0.0173692
-550.48,-0.0166908
-550.0,-0.016905
-549.52,-0.0171549
-549.0400000000001,-0.016976400000000003
-548.56,-0.016869299999999997
-548.08,-0.0172263
-547.6,-0.0169407
-547.1199999999999,-0.0167265
-546.64,-0.016869299999999997
-546.16,-0.016619400000000003
-545.6800000000001,-0.0159767
-545.1999999999999,-0.016298
-544.72,-0.0166551
-544.24,-0.0164051
-543.76,-0.0172978
-543.28,-0.016869299999999997
-542.8000000000001,-0.0167622
-542.32,-0.0172978
-541.8399999999999,-0.0162623
-541.36,-0.0167979
-540.88,-0.016583599999999997
-540.4,-0.0162266
-539.92,-0.0160124
-539.44,-0.0164408
-538.96,-0.016583599999999997
-538.48,-0.0165479
-538.0,-0.0165122
-537.52,-0.017190599999999997
-537.04,-0.016583599999999997
-536.56,-0.0166551
-536.08,-0.0157624
-535.5999999999999,-0.0166551
-535.12,-0.0160481
-534.64,-0.0162266
-534.1600000000001,-0.0160481
-533.68,-0.015869499999999998
-533.2,-0.0158338
-532.72,-0.0158338
-532.24,-0.0159767
-531.76,-0.016476499999999998
-531.28,-0.016333700000000003
-530.8000000000001,-0.0167265
-530.3199999999999,-0.0163694
-529.84,-0.0169407
-529.36,-0.0166908
-528.88,-0.0166908
-528.4,-0.0160124
-527.9200000000001,-0.0161195
-527.44,-0.0161195
-526.9599999999999,-0.015869499999999998
-526.48,-0.0155482
-526.0,-0.0156553
-525.52,-0.0160838
-525.04,-0.0157267
-524.5600000000001,-0.016190899999999998
-524.0799999999999,-0.0159767
-523.6,-0.0155839
-523.12,-0.0155482
-522.6400000000001,-0.0157624
-522.16,-0.0161552
-521.68,-0.0161195
-521.2,-0.016476499999999998
-520.7199999999999,-0.0161195
-520.24,-0.0159052
-519.76,-0.0161195
-519.2800000000001,-0.0160124
-518.8,-0.015869499999999998
-518.32,-0.016190899999999998
-517.84,-0.0154054
-517.36,-0.015084
-516.88,-0.0152268
-516.4,-0.0159052
-515.92,-0.0160124
-515.4399999999999,-0.0161552
-514.96,-0.016333700000000003
-514.48,-0.0165122
-514.0,-0.0159052
-513.52,-0.015869499999999998
-513.0400000000001,-0.0160124
-512.56,-0.0160124
-512.0799999999999,-0.0157981
-511.6,-0.015691
-511.12,-0.0161552
-510.64,-0.016833599999999997
-510.15999999999997,-0.0160838
-509.68,-0.0157981
-509.19999999999993,-0.0164051
-508.71999999999997,-0.0158338
-508.24,-0.0162266
-507.76000000000005,-0.0156553
-507.28,-0.0163694
-506.8,-0.0160124
-506.32000000000005,-0.0165122
-505.84,-0.0166551
-505.36,-0.016976400000000003
-504.88000000000005,-0.0169407
-504.4,-0.0167265
-503.91999999999996,-0.016619400000000003
-503.44,-0.016476499999999998
-502.96000000000004,-0.0167979
-502.47999999999996,-0.0167265
-502.0,-0.016833599999999997
-501.52000000000004,-0.016619400000000003
-501.03999999999996,-0.0171192
-500.56,-0.0172621
-500.08000000000004,-0.0171192
-499.6,-0.016833599999999997
-499.11999999999995,-0.016869299999999997
-498.64,-0.0166551
-498.16,-0.0166551
-497.67999999999995,-0.0167979
-497.2,-0.016583599999999997
-496.72,-0.0170478
-496.23999999999995,-0.0169407
-495.76,-0.0165122
-495.28000000000003,-0.0164051
-494.80000000000007,-0.0165479
-494.31999999999994,-0.016333700000000003
-493.84,-0.0157624
-493.36,-0.016476499999999998
-492.87999999999994,-0.0164408
-492.4,-0.0159767
-491.92,-0.0158338
-491.44000000000005,-0.0162266
-490.96,-0.0159052
-490.48,-0.0157981
-490.00000000000006,-0.0156553
-489.52,-0.0161552
-489.03999999999996,-0.0159409
-488.56,-0.0159767
-488.08000000000004,-0.0155125
-487.59999999999997,-0.0157981
-487.12,-0.0155839
-486.64000000000004,-0.0154768
-486.16,-0.0152268
-485.68,-0.0154411
-485.20000000000005,-0.0155839
-484.72,-0.0155839
-484.23999999999995,-0.0160838
-483.76,-0.0154768
-483.28,-0.0154768
-482.8,-0.0152625
-482.32,-0.0154054
-481.84,-0.014798400000000001
-481.36,-0.0151554
-480.88,-0.0151911
-480.40000000000003,-0.0155839
-479.92,-0.0153697
-479.44,-0.0149412
-478.96,-0.0151197
-478.47999999999996,-0.0154054
-478.0,-0.0149055
-477.52,-0.014584100000000001
-477.04,-0.015334
-476.56,-0.0155125
-476.08,-0.0151554
-475.6,-0.0149412
-475.12,-0.014834100000000001
-474.64000000000004,-0.0153697
-474.15999999999997,-0.015619599999999999
-473.68,-0.0151911
-473.2,-0.014798400000000001
-472.71999999999997,-0.0151554
-472.24,-0.0152982
-471.76,-0.0154411
-471.28000000000003,-0.015084
-470.8,-0.015619599999999999
-470.32,-0.015084
-469.84000000000003,-0.0155482
-469.36,-0.015691
-468.88,-0.0155839
-468.4,-0.0151911
-467.91999999999996,-0.0159052
-467.44,-0.0151911
-466.96,-0.015334
-466.48,-0.0159409
-466.0,-0.0160481
-465.52000000000004,-0.0155482
-465.04,-0.0152268
-464.56,-0.014834100000000001
-464.08,-0.0152982
-463.59999999999997,-0.0158338
-463.12,-0.0164408
-462.64,-0.0166551
-462.15999999999997,-0.016619400000000003
-461.68,-0.0160124
-461.2,-0.0157267
-460.72,-0.0159409
-460.24,-0.0160124
-459.76000000000005,-0.015691
-459.28000000000003,-0.0157624
-458.79999999999995,-0.015869499999999998
-458.32,-0.0159409
-457.84,-0.0160124
-457.36,-0.016190899999999998
-456.88,-0.0160124
-456.4,-0.0158338
-455.92,-0.0158338
-455.44,-0.0159409
-454.96000000000004,-0.015869499999999998
-454.48,-0.0160838
-454.0,-0.0155839
-453.52,-0.0157624
-453.03999999999996,-0.0154768
-452.56,-0.015084
-452.08,-0.014976900000000001
-451.6,-0.015084
-451.12,-0.0151911
-450.64,-0.014976900000000001
-450.16,-0.0151554
-449.68,-0.0152625
-449.2,-0.0151554
-448.71999999999997,-0.0152268
-448.24,-0.0151911
-447.76,-0.0149055
-447.28,-0.0152982
-446.8,-0.014548400000000001
-446.32,-0.014798400000000001
-445.84000000000003,-0.014548400000000001
-445.36,-0.014512700000000002
-444.88,-0.0150483
-444.40000000000003,-0.0150483
-443.91999999999996,-0.0152982
-443.44,-0.0151911
-442.96,-0.014798400000000001
-442.48,-0.0146555
-442.0,-0.014584100000000001
-441.52,-0.014727
-441.04,-0.014227100000000001
-440.56,-0.013905700000000002
-440.08000000000004,-0.014119999999999999
-439.6,-0.014298500000000002
-439.12,-0.0146555
-438.64,-0.014584100000000001
-438.15999999999997,-0.0140486
-437.68,-0.014119999999999999
-437.2,-0.013727200000000002
-436.71999999999997,-0.013691499999999999
-436.24,-0.0134773
-435.76,-0.0134416
-435.28000000000003,-0.013834299999999999
-434.8,-0.014262799999999999
-434.32000000000005,-0.013691499999999999
-433.84,-0.014155700000000002
-433.35999999999996,-0.013834299999999999
-432.88,-0.013905700000000002
-432.4,-0.013834299999999999
-431.92,-0.013834299999999999
-431.44,-0.0134773
-430.96,-0.0136558
-430.48,-0.013512999999999999
-430.0,-0.013834299999999999
-429.52000000000004,-0.013512999999999999
-429.04,-0.0135844
-428.56,-0.0137629
-428.08,-0.0136201
-427.59999999999997,-0.013727200000000002
-427.12,-0.014227100000000001
-426.64,-0.014369899999999998
-426.16,-0.014012799999999999
-425.68,-0.013834299999999999
-425.2,-0.013905700000000002
-424.72,-0.013727200000000002
-424.24,-0.0133701
-423.76,-0.0140843
-423.28,-0.014012799999999999
-422.8,-0.014012799999999999
-422.32,-0.013834299999999999
-421.84,-0.0135487
-421.36,-0.0136201
-420.88,-0.0137629
-420.40000000000003,-0.0132987
-419.92,-0.0134059
-419.44,-0.013512999999999999
-418.96000000000004,-0.013262999999999999
-418.47999999999996,-0.0135844
-418.0,-0.0132987
-417.52,-0.013227299999999999
-417.04,-0.013691499999999999
-416.56,-0.013512999999999999
-416.08,-0.014119999999999999
-415.6,-0.0136558
-415.12,-0.0130131
-414.64000000000004,-0.0129417
-414.16,-0.0125846
-413.67999999999995,-0.0128703
-413.2,-0.0131559
-412.71999999999997,-0.0126203
-412.24,-0.0126203
-411.76,-0.0128703
-411.28,-0.013227299999999999
-410.8,-0.013512999999999999
-410.32,-0.0134059
-409.84000000000003,-0.0127632
-409.36,-0.0130131
-408.88,-0.0129774
-408.4,-0.0128346
-407.91999999999996,-0.012406100000000002
-407.44,-0.0130131
-406.96,-0.0130131
-406.48,-0.0128703
-406.0,-0.0137986
-405.52,-0.0134416
-405.04,-0.0135487
-404.56,-0.014012799999999999
-404.08000000000004,-0.013905700000000002
-403.59999999999997,-0.013691499999999999
-403.12,-0.014227100000000001
-402.64,-0.0136201
-402.15999999999997,-0.0137986
-401.68,-0.0135844
-401.2,-0.0136558
-400.72,-0.013727200000000002
-400.24,-0.014262799999999999
-399.76,-0.0140486
-399.28000000000003,-0.014691299999999997
-398.8,-0.014227100000000001
-398.32,-0.014834100000000001
-397.84,-0.013727200000000002
-397.36,-0.013512999999999999
-396.88,-0.013512999999999999
-396.4,-0.013834299999999999
-395.92,-0.014227100000000001
-395.44,-0.014369899999999998
-394.96000000000004,-0.014155700000000002
-394.48,-0.014012799999999999
-394.0,-0.014227100000000001
-393.52,-0.014441299999999999
-393.03999999999996,-0.014334200000000002
-392.56,-0.014012799999999999
-392.08,-0.0137986
-391.6,-0.013869999999999999
-391.12,-0.013869999999999999
-390.64,-0.013905700000000002
-390.16,-0.013941399999999998
-389.68,-0.014191399999999998
-389.20000000000005,-0.014512700000000002
-388.72,-0.014727
-388.23999999999995,-0.014869799999999997
-387.76,-0.0155482
-387.28,-0.014441299999999999
-386.8,-0.0147627
-386.32,-0.0146555
-385.84,-0.014727
-385.36,-0.015012600000000001
-384.88,-0.014834100000000001
-384.40000000000003,-0.014548400000000001
-383.92,-0.014976900000000001
-383.44,-0.014441299999999999
-382.96,-0.014976900000000001
-382.47999999999996,-0.0149055
-382.0,-0.0147627
-381.52,-0.015084
-381.04,-0.0149412
-380.56,-0.0150483
-380.08,-0.014227100000000001
-379.6,-0.014334200000000002
-379.12,-0.014691299999999997
-378.64000000000004,-0.014369899999999998
-378.15999999999997,-0.0146555
-377.68,-0.014405600000000001
-377.2,-0.014262799999999999
-376.71999999999997,-0.014405600000000001
-376.24,-0.014619799999999999
-375.76,-0.014548400000000001
-375.28000000000003,-0.014405600000000001
-374.8,-0.0152982
-374.32,-0.014727
-373.84000000000003,-0.013977100000000001
-373.35999999999996,-0.013869999999999999
-372.88,-0.014155700000000002
-372.4,-0.014512700000000002
-371.92,-0.014405600000000001
-371.44,-0.014334200000000002
-370.96,-0.014727
-370.48,-0.0151197
-370.0,-0.014619799999999999
-369.52000000000004,-0.014512700000000002
-369.04,-0.014405600000000001
-368.56,-0.014155700000000002
-368.08,-0.0135844
-367.59999999999997,-0.013834299999999999
-367.12,-0.013727200000000002
-366.64,-0.014369899999999998
-366.16,-0.014619799999999999
-365.68,-0.014227100000000001
-365.2,-0.014227100000000001
-364.72,-0.013727200000000002
-364.24,-0.014191399999999998
-363.76000000000005,-0.0137986
-363.28,-0.014119999999999999
-362.79999999999995,-0.014119999999999999
-362.32,-0.014691299999999997
-361.84,-0.0146555
-361.36,-0.0149055
-360.88,-0.0154768
-360.40000000000003,-0.0149055
-359.92,-0.014691299999999997
-359.44,-0.014298500000000002
-358.96000000000004,-0.0146555
-358.48,-0.014262799999999999
-358.0,-0.014405600000000001
-357.52,-0.0147627
-357.03999999999996,-0.0151554
-356.56,-0.014976900000000001
-356.08,-0.014976900000000001
-355.6,-0.014798400000000001
-355.12,-0.014976900000000001
-354.64,-0.014834100000000001
-354.16,-0.0147627
-353.68,-0.014441299999999999
-353.2,-0.014548400000000001
-352.71999999999997,-0.0140843
-352.24,-0.014441299999999999
-351.76,-0.014512700000000002
-351.28,-0.0146555
-350.8,-0.014619799999999999
-350.32,-0.0152982
-349.84000000000003,-0.0151911
-349.36,-0.0149412
-348.88,-0.015084
-348.40000000000003,-0.014834100000000001
-347.91999999999996,-0.014334200000000002
-347.44,-0.014727
-346.96,-0.0150483
-346.48,-0.014976900000000001
-346.0,-0.014548400000000001
-345.52,-0.0152982
-345.04,-0.0153697
-344.56,-0.0147627
-344.08000000000004,-0.014798400000000001
-343.6,-0.015012600000000001
-343.11999999999995,-0.014405600000000001
-342.64,-0.0146555
-342.15999999999997,-0.0147627
-341.68,-0.014976900000000001
-341.2,-0.0149412
-340.72,-0.015012600000000001
-340.24,-0.014227100000000001
-339.76,-0.015334
-339.28000000000003,-0.0151554
-338.8,-0.0147627
-338.32,-0.0151197
-337.84,-0.0150483
-337.35999999999996,-0.0152982
-336.88,-0.014976900000000001
-336.4,-0.015334
-335.92,-0.015084
-335.44,-0.014798400000000001
-334.96000000000004,-0.0153697
-334.48,-0.014619799999999999
-334.0,-0.015084
-333.52000000000004,-0.0149055
-333.03999999999996,-0.015012600000000001
-332.56,-0.0152982
-332.08,-0.0154054
-331.59999999999997,-0.0149055
-331.12,-0.0151911
-330.64,-0.0155839
-330.16,-0.014727
-329.68,-0.0147627
-329.2,-0.014441299999999999
-328.72,-0.014155700000000002
-328.24,-0.014119999999999999
-327.76,-0.014334200000000002
-327.28,-0.013727200000000002
-326.8,-0.014369899999999998
-326.32,-0.014798400000000001
-325.84,-0.0146555
-325.36,-0.014619799999999999
-324.88,-0.014262799999999999
-324.40000000000003,-0.014441299999999999
-323.92,-0.014834100000000001
-323.44,-0.0147627
-322.96,-0.014548400000000001
-322.47999999999996,-0.014227100000000001
-322.0,-0.014869799999999997
-321.52,-0.0146555
-321.04,-0.0146555
-320.56,-0.015084
-320.08,-0.0152982
-319.6,-0.014834100000000001
-319.12,-0.014369899999999998
-318.64000000000004,-0.014119999999999999
-318.16,-0.0146555
-317.67999999999995,-0.014619799999999999
-317.2,-0.0149412
-316.71999999999997,-0.014798400000000001
-316.24,-0.0152268
-315.76,-0.0157267
-315.28000000000003,-0.014976900000000001
-314.8,-0.014834100000000001
-314.32,-0.014869799999999997
-313.84000000000003,-0.0149055
-313.36,-0.0150483
-312.88,-0.015619599999999999
-312.4,-0.015691
-311.91999999999996,-0.0156553
-311.44,-0.0160481
-310.96,-0.015619599999999999
-310.48,-0.0154768
-310.0,-0.0160481
-309.52000000000004,-0.0157267
-309.04,-0.0154411
-308.56,-0.0152982
-308.08000000000004,-0.015691
-307.59999999999997,-0.0152982
-307.12,-0.0151197
-306.64,-0.0154054
-306.15999999999997,-0.0155482
-305.68,-0.0154768
-305.2,-0.0155839
-304.72,-0.0154411
-304.24,-0.0155839
-303.76000000000005,-0.0155839
-303.28000000000003,-0.0157981
-302.79999999999995,-0.0152982
-302.32,-0.015619599999999999
-301.84,-0.0157981
-301.36,-0.015691
-300.88,-0.0159409
-300.4,-0.0160481
-299.92,-0.0160838
-299.44,-0.016583599999999997
-298.96000000000004,-0.0160838
-298.48,-0.0162266
-298.0,-0.0160124
-297.52,-0.0154411
-297.03999999999996,-0.0157981
-296.56,-0.0154768
-296.08,-0.014976900000000001
-295.6,-0.0153697
-295.12,-0.0160838
-294.64,-0.0161552
-294.16,-0.0155839
-293.68,-0.0159052
-293.20000000000005,-0.015691
-292.71999999999997,-0.0154768
-292.23999999999995,-0.015619599999999999
-291.76,-0.015619599999999999
-291.28,-0.0151197
-290.8,-0.014834100000000001
-290.32,-0.0149412
-289.84000000000003,-0.014976900000000001
-289.36,-0.0154054
-288.88,-0.0154768
-288.40000000000003,-0.0159052
-287.92,-0.0154768
-287.44,-0.0153697
-286.96,-0.014798400000000001
-286.47999999999996,-0.0155839
-286.0,-0.0154768
-285.52,-0.015619599999999999
-285.04,-0.0157267
-284.56,-0.0152268
-284.08000000000004,-0.0155839
-283.6,-0.0151197
-283.12,-0.0154411
-282.64,-0.0155839
-282.15999999999997,-0.0156553
-281.68,-0.0160838
-281.2,-0.0154411
-280.71999999999997,-0.0157981
-280.24,-0.0160124
-279.76,-0.0163694
-279.28000000000003,-0.0157267
-278.8,-0.0157624
-278.32000000000005,-0.0152982
-277.84000000000003,-0.016190899999999998
-277.35999999999996,-0.0157624
-276.88,-0.0159052
-276.4,-0.015691
-275.92,-0.0167979
-275.44,-0.0162623
-274.96,-0.016476499999999998
-274.48,-0.016298
-274.0,-0.015869499999999998
-273.52000000000004,-0.0159409
-273.04,-0.0157267
-272.55999999999995,-0.0155125
-272.08,-0.0160838
-271.59999999999997,-0.0165122
-271.12,-0.0162266
-270.64,-0.016583599999999997
-270.16,-0.015869499999999998
-269.68,-0.0164408
-269.2,-0.016190899999999998
-268.72,-0.0164408
-268.24,-0.0163694
-267.76,-0.016190899999999998
-267.28,-0.0164408
-266.79999999999995,-0.0162266
-266.32,-0.0160124
-265.84,-0.0161552
-265.36,-0.0162266
-264.88,-0.0165122
-264.40000000000003,-0.016333700000000003
-263.92,-0.0164051
-263.44,-0.0167979
-262.96000000000004,-0.0165122
-262.47999999999996,-0.016298
-262.0,-0.0164051
-261.52,-0.016333700000000003
-261.03999999999996,-0.0164408
-260.56,-0.0159767
-260.08,-0.016476499999999998
-259.6,-0.0166551
-259.12,-0.0170121
-258.64000000000004,-0.0171192
-258.16,-0.0171192
-257.68,-0.0169407
-257.2,-0.0170121
-256.71999999999997,-0.0173335
-256.24,-0.0171549
-255.76,-0.0160481
-255.27999999999997,-0.016833599999999997
-254.8,-0.016333700000000003
-254.32,-0.016583599999999997
-253.84,-0.0167622
-253.35999999999999,-0.016905
-252.88000000000002,-0.0172621
-252.4,-0.016905
-251.92,-0.0170478
-251.44000000000003,-0.016905
-250.95999999999998,-0.0167979
-250.48000000000002,-0.0167622
-250.0,-0.0164408
-249.51999999999998,-0.0165122
-249.04000000000002,-0.0167265
-248.55999999999997,-0.0166908
-248.08,-0.0170478
-247.6,-0.0167622
-247.11999999999998,-0.0170121
-246.64000000000001,-0.0166551
-246.15999999999997,-0.0170478
-245.68,-0.016869299999999997
-245.2,-0.0164408
-244.72000000000003,-0.016976400000000003
-244.24,-0.016190899999999998
-243.76,-0.016190899999999998
-243.28,-0.0170835
-242.79999999999998,-0.016190899999999998
-242.32000000000002,-0.015869499999999998
-241.84,-0.016190899999999998
-241.36,-0.0165122
-240.88,-0.0164408
-240.4,-0.0162266
-239.92,-0.0160838
-239.44,-0.0161195
-238.96,-0.0162266
-238.48,-0.0161195
-238.0,-0.015691
-237.52,-0.0163694
-237.04,-0.0155482
-236.56,-0.0157981
-236.07999999999998,-0.0152982
-235.6,-0.0159052
-235.12,-0.0154411
-234.64000000000001,-0.0159767
-234.16,-0.0160124
-233.68,-0.0160838
-233.2,-0.0157981
-232.72,-0.0158338
-232.24,-0.015691
-231.76000000000002,-0.016190899999999998
-231.28,-0.0159052
-230.79999999999998,-0.0158338
-230.32,-0.016190899999999998
-229.84,-0.015619599999999999
-229.36,-0.0154768
-228.88000000000002,-0.0159052
-228.39999999999998,-0.0155125
-227.92,-0.015619599999999999
-227.44,-0.0159409
-226.96,-0.0159052
-226.48000000000002,-0.0157267
-226.0,-0.015691
-225.51999999999998,-0.0155482
-225.04,-0.0160124
-224.56,-0.0159052
-224.08,-0.0155839
-223.6,-0.0153697
-223.12,-0.015334
-222.64,-0.0159052
-222.16,-0.0155839
-221.68,-0.0157981
-221.20000000000002,-0.0161195
-220.72,-0.0164408
-220.24,-0.0160838
-219.76,-0.0160124
-219.28,-0.0160124
-218.8,-0.0157981
-218.32,-0.0160481
-217.84,-0.0161195
-217.35999999999999,-0.0161195
-216.88,-0.016190899999999998
-216.4,-0.0160481
-215.92,-0.0159409
-215.44,-0.0159767
-214.96,-0.0157981
-214.48,-0.0157981
-214.0,-0.0162623
-213.52,-0.0160481
-213.04,-0.0164051
-212.56,-0.0162266
-212.08,-0.015619599999999999
-211.6,-0.015619599999999999
-211.12,-0.0154768
-210.64,-0.0155125
-210.16,-0.0155125
-209.68,-0.0159052
-209.20000000000002,-0.0165479
-208.72,-0.0164051
-208.23999999999998,-0.0167265
-207.76,-0.016583599999999997
-207.28,-0.016869299999999997
-206.8,-0.0167622
-206.32000000000002,-0.016869299999999997
-205.83999999999997,-0.016190899999999998
-205.35999999999999,-0.0159409
-204.88,-0.0157624
-204.4,-0.0152625
-203.92000000000002,-0.0155839
-203.44,-0.015691
-202.95999999999998,-0.016333700000000003
-202.48,-0.0159767
-202.0,-0.0164051
-201.52,-0.0160838
-201.04000000000002,-0.015869499999999998
-200.56,-0.0159409
-200.07999999999998,-0.0157267
-199.6,-0.0155125
-199.12,-0.0159409
-198.64000000000001,-0.0160838
-198.16,-0.0152625
-197.68,-0.015869499999999998
-197.2,-0.016190899999999998
-196.72,-0.0157981
-196.24,-0.0164408
-195.76,-0.0162266
-195.28,-0.0161195
-194.8,-0.0159767
-194.32,-0.0154411
-193.84,-0.0159767
-193.36,-0.0157981
-192.88,-0.0157624
-192.4,-0.015691
-191.92,-0.0157267
-191.44,-0.0160838
-190.96,-0.0160838
-190.48,-0.016298
-190.0,-0.0161552
-189.52,-0.0160481
-189.04,-0.0157981
-188.56,-0.0158338
-188.07999999999998,-0.0150483
-187.6,-0.0149412
-187.12,-0.0151911
-186.64000000000001,-0.015691
-186.16,-0.0160124
-185.67999999999998,-0.0159052
-185.2,-0.0157624
-184.72,-0.0160124
-184.24,-0.015691
-183.76000000000002,-0.015869499999999998
-183.28,-0.015691
-182.79999999999998,-0.0154054
-182.32,-0.0149055
-181.84,-0.0154411
-181.36,-0.0154054
-180.88000000000002,-0.0155125
-180.39999999999998,-0.0157981
-179.92,-0.0159767
-179.44,-0.0159767
-178.96,-0.0156553
-178.48000000000002,-0.0154411
-178.0,-0.0154054
-177.51999999999998,-0.015084
-177.04,-0.015084
-176.56,-0.0152268
-176.08,-0.014869799999999997
-175.6,-0.0155482
-175.12,-0.0152982
-174.64,-0.015619599999999999
-174.16,-0.0151197
-173.68,-0.0155839
-173.20000000000002,-0.014798400000000001
-172.72,-0.014976900000000001
-172.24,-0.0154411
-171.76,-0.015334
-171.28,-0.015334
-170.8,-0.014869799999999997
-170.32,-0.0150483
-169.84,-0.015334
-169.36,-0.0158338
-168.88,-0.0152625
-168.4,-0.0154054
-167.92,-0.0152625
-167.44,-0.0151911
-166.96,-0.0151911
-166.48000000000002,-0.015334
-166.0,-0.014976900000000001
-165.51999999999998,-0.0147627
-165.04,-0.014798400000000001
-164.56,-0.0155125
-164.08,-0.0157981
-163.6,-0.0154054
-163.12,-0.0153697
-162.64,-0.0152268
-162.16,-0.0157981
-161.68,-0.0155839
-161.20000000000002,-0.015012600000000001
-160.72,-0.014869799999999997
-160.23999999999998,-0.0150483
-159.76,-0.0150483
-159.28,-0.014976900000000001
-158.8,-0.0152625
-158.32000000000002,-0.014976900000000001
-157.83999999999997,-0.0155482
-157.35999999999999,-0.0159052
-156.88,-0.0152268
-156.4,-0.0158338
-155.92000000000002,-0.0160838
-155.44,-0.0154768
-154.95999999999998,-0.0160481
-154.48,-0.0156553
-154.0,-0.0151197
-153.52,-0.015619599999999999
-153.04000000000002,-0.014727
-152.56,-0.0151197
-152.07999999999998,-0.014976900000000001
-151.6,-0.0152268
-151.12,-0.0150483
-150.64000000000001,-0.0154411
-150.16,-0.0158338
-149.68,-0.0154411
-149.2,-0.0161195
-148.72,-0.015619599999999999
-148.24,-0.0155839
-147.76,-0.0154411
-147.28,-0.015334
-146.8,-0.0154054
-146.32,-0.0153697
-145.84,-0.0153697
-145.35999999999999,-0.015619599999999999
-144.88,-0.0152268
-144.4,-0.0161552
-143.92000000000002,-0.0161195
-143.44,-0.0161195
-142.96,-0.0160481
-142.48,-0.0160838
-142.0,-0.0157624
-141.52,-0.0154054
-141.04000000000002,-0.0154768
-140.56,-0.0157981
-140.07999999999998,-0.0160124
-139.6,-0.015619599999999999
-139.12,-0.015869499999999998
-138.64000000000001,-0.0161552
-138.16000000000003,-0.0159052
-137.67999999999998,-0.0161195
-137.2,-0.0156553
-136.72,-0.0152625
-136.24,-0.014548400000000001
-135.76000000000002,-0.014548400000000001
-135.27999999999997,-0.0149412
-134.79999999999998,-0.0154054
-134.32,-0.0159052
-133.84,-0.0159052
-133.36,-0.0159409
-132.88,-0.0155125
-132.39999999999998,-0.015334
-131.92,-0.0149412
-131.44,-0.015084
-130.96,-0.0152982
-130.48000000000002,-0.0149055
-130.0,-0.0152268
-129.51999999999998,-0.0154768
-129.04,-0.0161195
-128.56,-0.0155482
-128.08,-0.015012600000000001
-127.6,-0.015012600000000001
-127.12,-0.0154054
-126.63999999999999,-0.014691299999999997
-126.16,-0.014691299999999997
-125.67999999999999,-0.0149412
-125.2,-0.015012600000000001
-124.72000000000001,-0.015084
-124.24000000000001,-0.0149055
-123.75999999999999,-0.015334
-123.27999999999999,-0.014869799999999997
-122.8,-0.0149412
-122.32000000000001,-0.014298500000000002
-121.84,-0.014262799999999999
-121.36000000000001,-0.0137629
-120.88,-0.014477
-120.39999999999999,-0.014227100000000001
-119.92,-0.014298500000000002
-119.44,-0.014441299999999999
-118.96,-0.014334200000000002
-118.48,-0.014155700000000002
-118.0,-0.014119999999999999
-117.52,-0.0140486
-117.03999999999999,-0.013941399999999998
-116.56,-0.013727200000000002
-116.08,-0.013977100000000001
-115.6,-0.014155700000000002
-115.12,-0.014691299999999997
-114.64,-0.013977100000000001
-114.16,-0.014405600000000001
-113.68,-0.0140843
-113.19999999999999,-0.014298500000000002
-112.72,-0.014727
-112.24000000000001,-0.014227100000000001
-111.75999999999999,-0.014012799999999999
-111.28,-0.013834299999999999
-110.8,-0.013977100000000001
-110.32,-0.013869999999999999
-109.84,-0.014227100000000001
-109.36,-0.013977100000000001
-108.88,-0.014191399999999998
-108.4,-0.0147627
-107.92,-0.0140843
-107.44,-0.013227299999999999
-106.96,-0.013512999999999999
-106.48,-0.0134416
-106.0,-0.013869999999999999
-105.52,-0.0135844
-105.04,-0.013834299999999999
-104.56,-0.0134773
-104.08,-0.013727200000000002
-103.60000000000001,-0.0137986
-103.11999999999999,-0.013977100000000001
-102.64,-0.013834299999999999
-102.16000000000001,-0.014155700000000002
-101.67999999999999,-0.013941399999999998
-101.2,-0.014012799999999999
-100.72,-0.013869999999999999
-100.24,-0.014119999999999999
-99.76,-0.0140843
-99.28,-0.013727200000000002
-98.8,-0.014227100000000001
-98.32000000000001,-0.014191399999999998
-97.84,-0.014405600000000001
-97.36,-0.0147627
-96.88,-0.014691299999999997
-96.4,-0.014441299999999999
-95.92,-0.014405600000000001
-95.44,-0.014334200000000002
-94.96,-0.014262799999999999
-94.48,-0.014298500000000002
-94.0,-0.0146555
-93.52,-0.0146555
-93.03999999999999,-0.014477
-92.56,-0.0149055
-92.08,-0.014334200000000002
-91.6,-0.015084
-91.12,-0.014869799999999997
-90.64,-0.0151911
-90.16,-0.0155839
-89.68,-0.0155839
-89.19999999999999,-0.015334
-88.72,-0.0154054
-88.24000000000001,-0.0158338
-87.75999999999999,-0.0154768
-87.28,-0.0153697
-86.8,-0.0155839
-86.32,-0.0152625
-85.84,-0.0154054
-85.36,-0.0153697
-84.88,-0.0157267
-84.4,-0.0155125
-83.92,-0.0162266
-83.44,-0.0157267
-82.96,-0.0155125
-82.48,-0.015334
-82.0,-0.0157624
-81.52,-0.0151554
-81.04,-0.0151911
-80.56,-0.0157267
-80.08,-0.0159767
-79.60000000000001,-0.0155839
-79.11999999999999,-0.015869499999999998
-78.64,-0.0157267
-78.16000000000001,-0.0159052
-77.67999999999999,-0.0161552
-77.2,-0.015869499999999998
-76.72,-0.0155839
-76.24,-0.0155482
-75.76,-0.0160481
-75.28,-0.0159767
-74.8,-0.0157981
-74.32000000000001,-0.015691
-73.84,-0.0154768
-73.36,-0.0162266
-72.88,-0.0159767
-72.4,-0.0154768
-71.92,-0.0152982
-71.44,-0.0151197
-70.96000000000001,-0.0155839
-70.48,-0.0159409
-70.0,-0.0158338
-69.52000000000001,-0.0159052
-69.03999999999999,-0.0157981
-68.56,-0.0155125
-68.08000000000001,-0.0155125
-67.6,-0.0154054
-67.12,-0.0156553
-66.63999999999999,-0.015084
-66.16,-0.015334
-65.68,-0.0149055
-65.19999999999999,-0.014798400000000001
-64.72,-0.0151554
-64.24000000000001,-0.0150483
-63.75999999999999,-0.0154768
-63.28,-0.0154768
-62.8,-0.0155482
-62.31999999999999,-0.015619599999999999
-61.839999999999996,-0.0152982
-61.36000000000001,-0.0151911
-60.879999999999995,-0.0149412
-60.4,-0.0150483
-59.92,-0.0152982
-59.44,-0.014512700000000002
-58.96,-0.014334200000000002
-58.48,-0.0149055
-58.0,-0.014584100000000001
-57.519999999999996,-0.014869799999999997
-57.04,-0.015334
-56.56,-0.014512700000000002
-56.08,-0.014727
-55.599999999999994,-0.014727
-55.120000000000005,-0.0152982
-54.64,-0.0152625
-54.16,-0.014798400000000001
-53.68,-0.014976900000000001
-53.2,-0.014548400000000001
-52.72,-0.0147627
-52.24,-0.015084
-51.76,-0.014477
-51.28,-0.014619799999999999
-50.800000000000004,-0.014548400000000001
-50.32,-0.014512700000000002
-49.839999999999996,-0.014334200000000002
-49.36,-0.0146555
-48.88,-0.014477
-48.4,-0.014834100000000001
-47.92,-0.0146555
-47.44,-0.014262799999999999
-46.96,-0.014298500000000002
-46.48,-0.014584100000000001
-46.0,-0.014441299999999999
-45.519999999999996,-0.014262799999999999
-45.04,-0.013977100000000001
-44.56,-0.014012799999999999
-44.08,-0.014334200000000002
-43.599999999999994,-0.014691299999999997
-43.120000000000005,-0.014155700000000002
-42.64,-0.0146555
-42.16,-0.014119999999999999
-41.68,-0.014119999999999999
-41.2,-0.014262799999999999
-40.72,-0.0146555
-40.24,-0.0137629
-39.76,-0.014191399999999998
-39.28,-0.014334200000000002
-38.800000000000004,-0.014191399999999998
-38.32,-0.014548400000000001
-37.839999999999996,-0.0150483
-37.36,-0.014405600000000001
-36.88,-0.014441299999999999
-36.4,-0.014405600000000001
-35.92,-0.014191399999999998
-35.44,-0.014155700000000002
-34.96,-0.0140486
-34.480000000000004,-0.014548400000000001
-34.0,-0.014298500000000002
-33.519999999999996,-0.014155700000000002
-33.040000000000006,-0.014227100000000001
-32.56,-0.0132987
-32.08,-0.013727200000000002
-31.599999999999994,-0.0134416
-31.120000000000005,-0.013941399999999998
-30.64,-0.0147627
-30.159999999999997,-0.014727
-29.680000000000003,-0.014441299999999999
-29.2,-0.0149055
-28.72,-0.014691299999999997
-28.24,-0.014334200000000002
-27.759999999999998,-0.013691499999999999
-27.28,-0.013512999999999999
-26.799999999999997,-0.013905700000000002
-26.32,-0.0134773
-25.84,-0.014441299999999999
-25.36,-0.014334200000000002
-24.88,-0.015084
-24.400000000000002,-0.014619799999999999
-23.919999999999998,-0.014512700000000002
-23.44,-0.0146555
-22.96,-0.0140486
-22.48,-0.0140486
-22.0,-0.013869999999999999
-21.52,-0.014262799999999999
-21.04,-0.014298500000000002
-20.560000000000002,-0.014334200000000002
-20.08,-0.0146555
-19.6,-0.014227100000000001
-19.12,-0.0149412
-18.64,-0.014798400000000001
-18.16,-0.0147627
-17.68,-0.014227100000000001
-17.2,-0.014262799999999999
-16.72,-0.013834299999999999
-16.240000000000002,-0.0136201
-15.759999999999998,-0.014227100000000001
-15.280000000000001,-0.013905700000000002
-14.799999999999997,-0.013869999999999999
-14.32,-0.014298500000000002
-13.840000000000002,-0.014298500000000002
-13.36,-0.014191399999999998
-12.879999999999999,-0.014727
-12.399999999999999,-0.014869799999999997
-11.92,-0.014834100000000001
-11.44,-0.013905700000000002
-10.959999999999999,-0.014441299999999999
-10.48,-0.0140843
-10.0,-0.014691299999999997
-9.52,-0.0146555
-9.04,-0.014548400000000001
-8.56,-0.014727
-8.08,-0.0149055
-7.6,-0.013941399999999998
-7.120000000000001,-0.014477
-6.640000000000001,-0.014227100000000001
-6.16,-0.014227100000000001
-5.68,-0.0147627
-5.199999999999999,-0.015012600000000001
-4.72,-0.015012600000000001
-4.24,-0.014869799999999997
-3.76,-0.014441299999999999
-3.2800000000000002,-0.014405600000000001
-2.8,-0.014334200000000002
-2.3200000000000003,-0.014727
-1.8399999999999999,-0.015012600000000001
-1.3599999999999999,-0.0152268
-0.8799999999999999,-0.0154054
-0.3999999999999999,-0.0154054
0.08000000000000007,-0.0157981
0.56,-0.0393995
1.04,-0.07024910000000001
1.52,-0.041649
2.0000000000000204,0.0898189
2.48,0.20939699999999997
2.96,0.313657
3.44,0.40442100000000003
3.92,0.48429399999999995
4.4,0.555741
4.88,0.621011
5.359999999999999,0.680175
5.84,0.733483
6.32,0.781829
6.8,0.826782
7.28,0.869093
7.76,0.906905
8.24,0.941789
8.719999999999999,0.973425
9.2,1.0041
9.68,1.03252
10.16,1.05972
10.64,1.08425
11.120000000000001,1.10768
11.6,1.13006
12.08,1.15049
12.56,1.17016
13.04,1.18844
13.52,1.20601
14.0,1.22308
14.48,1.2394
14.959999999999999,1.25396
15.44,1.2678200000000002
15.92,1.2817100000000001
16.4,1.29481
16.88,1.30759
17.36,1.32034
17.840000000000003,1.33219
18.32,1.34351
18.799999999999997,1.3543
19.28,1.3652600000000001
19.759999999999998,1.3745100000000001
20.240000000000002,1.38504
20.72,1.39439
21.2,1.40396
21.68,1.41339
22.16,1.4221700000000002
22.64,1.43021
23.12,1.43913
23.6,1.4472
24.08,1.4547
24.560000000000002,1.46231
25.04,1.47023
25.52,1.4778
26.0,1.48501
26.48,1.49169
26.96,1.49865
27.44,1.5056200000000002
27.919999999999998,1.51215
28.400000000000002,1.51915
28.88,1.52568
29.36,1.5322200000000001
29.84,1.53864
30.32,1.54439
30.799999999999997,1.5508899999999999
31.28,1.5563200000000001
31.759999999999998,1.562
32.239999999999995,1.56782
32.72,1.57342
33.2,1.57899
33.68000000000001,1.58453
34.16,1.58995
34.64,1.59602
35.120000000000005,1.6014899999999999
35.599999999999994,1.60659
36.08,1.61216
36.56,1.61705
37.040000000000006,1.6224100000000001
37.519999999999996,1.62691
38.0,1.63276
38.480000000000004,1.63733
38.96,1.6417599999999999
39.44,1.6471900000000002
39.92,1.65165
40.4,1.65661
40.88,1.66136
41.36,1.66668
41.839999999999996,1.6707900000000002
42.32,1.67565
42.800000000000004,1.6804700000000001
43.28,1.68472
43.76,1.68914
44.24,1.6928900000000002
44.72,1.6974599999999997
45.2,1.7017799999999998
45.68,1.7066
46.16,1.7106
46.64,1.7154599999999998
47.120000000000005,1.7191400000000001
47.599999999999994,1.72281
48.08,1.72688
48.56,1.7317799999999999
49.04,1.73563
49.519999999999996,1.7395200000000002
50.0,1.74363
50.48,1.7471299999999998
50.96,1.7510599999999998
51.44,1.7550599999999998
51.92,1.75902
52.4,1.76309
52.88,1.76666
53.36,1.77059
53.839999999999996,1.7741900000000002
54.32,1.7783400000000003
54.800000000000004,1.7821900000000002
55.28,1.78551
55.76,1.78983
56.24,1.79312
56.72,1.79655
57.2,1.8005799999999998
57.68,1.8045400000000003
58.16,1.8074700000000001
58.64,1.81083
59.120000000000005,1.81465
59.599999999999994,1.81818
60.08,1.8214
60.56,1.82532
61.04,1.8286099999999998
61.519999999999996,0.737911
62.0,0.0010192
62.48,-0.00294412
62.96,-0.00455087
63.44,-0.00580057
63.92,-0.00651468
64.4,-0.00744302
64.88,-0.00697885
65.36000000000001,-0.00751443
65.84,-0.00751443
66.32,-0.00690744
66.8,-0.00719308
67.28,-0.0079429
67.75999999999999,-0.00808572
68.24000000000001,-0.00829996
68.72,-0.00865701
69.19999999999999,-0.00879984
69.68,-0.00879984
70.16,-0.00962106
70.63999999999999,-0.00933542
71.12,-0.00944254
71.6,-0.00951395
72.08000000000001,-0.00876413
72.56,-0.00851419
73.03999999999999,-0.00947824
73.52000000000001,-0.00958536
74.0,-0.00951395
74.48,-0.00969247
74.96000000000001,-0.0102281
75.44,-0.0101566
75.92,-0.00990671
76.4,-0.0101209
76.88,-0.00976389
77.36,-0.00990671
77.84,-0.0102995
78.32000000000001,-0.0102995
78.8,-0.010049500000000001
79.28,-0.00997812
79.76,-0.0100852
80.24,-0.0106922
80.72,-0.010478
81.2,-0.0103709
81.67999999999999,-0.0104066
82.16000000000001,-0.0111921
82.64,-0.010977899999999999
83.11999999999999,-0.011334899999999998
83.60000000000001,-0.012048999999999999
84.08,-0.011692000000000001
84.56,-0.0117277
85.04,-0.011870499999999999
85.52,-0.011263500000000001
86.0,-0.011692000000000001
86.48,-0.0117634
86.96,-0.0109065
87.44,-0.0112992
87.92,-0.011334899999999998
88.4,-0.011513500000000001
88.88,-0.011513500000000001
89.36,-0.0121562
89.84,-0.0122633
90.32,-0.012299
90.8,-0.0120847
91.28,-0.012299
91.75999999999999,-0.0119419
92.24000000000001,-0.0124418
92.72,-0.012048999999999999
93.19999999999999,-0.0123704
93.68,-0.0127274
94.16,-0.012798899999999998
94.64,-0.0124418
95.12,-0.0122633
95.6,-0.0128346
96.08,-0.012906
96.56,-0.0131916
97.03999999999999,-0.012299
97.52,-0.011513500000000001
98.0,-0.011692000000000001
98.48,-0.012299
98.96,-0.0126917
99.44,-0.012798899999999998
99.92,-0.0127632
100.4,-0.0127632
100.88,-0.012548899999999998
101.36,-0.0124775
101.84,-0.0124418
102.32000000000001,-0.0125846
102.8,-0.012406100000000002
103.28,-0.0120133
103.76,-0.012227600000000002
104.24,-0.012656
104.72,-0.0126917
105.2,-0.0127632
105.67999999999999,-0.0126203
106.16000000000001,-0.0129774
106.64,-0.0126203
107.11999999999999,-0.0133701
107.60000000000001,-0.012906
108.08,-0.0128346
108.56,-0.0130845
109.04,-0.0130488
109.52,-0.0132987
110.0,-0.0127632
110.48,-0.0132987
110.96,-0.0126917
111.44,-0.0123347
111.92,-0.0124775
112.4,-0.0126203
112.88,-0.0120133
113.36,-0.012048999999999999
113.84,-0.0125132
114.32,-0.0126203
114.8,-0.0124418
115.28,-0.0127274
115.75999999999999,-0.0121562
116.24000000000001,-0.0128703
116.72,-0.0121562
117.19999999999999,-0.0123704
117.68,-0.0120133
118.16,-0.0118348
118.64,-0.011977600000000001
119.12,-0.0123347
119.6,-0.0122633
120.08,-0.012299
120.56,-0.0123347
121.03999999999999,-0.0118348
121.52,-0.0119062
122.0,-0.0117991
122.48,-0.0116563
122.96,-0.0117277
123.44,-0.011584899999999999
123.92,-0.0112278
124.39999999999999,-0.0112278
124.88,-0.0120133
125.36000000000001,-0.0114063
125.84,-0.011513500000000001
126.32000000000001,-0.011870499999999999
126.8,-0.0119419
127.27999999999999,-0.0112992
127.75999999999999,-0.011334899999999998
128.24,-0.011263500000000001
128.72000000000003,-0.011442
129.2,-0.0119062
129.68,-0.011870499999999999
130.16,-0.0116563
130.64,-0.0124418
131.12,-0.0117277
131.6,-0.0119062
132.08,-0.011977600000000001
132.56,-0.0124775
133.04,-0.012548899999999998
133.51999999999998,-0.012656
134.0,-0.0122633
134.48000000000002,-0.0115492
134.96,-0.011870499999999999
135.44,-0.0118348
135.92,-0.011870499999999999
136.39999999999998,-0.012227600000000002
136.88,-0.012656
137.36,-0.0125132
137.84,-0.0126917
138.32,-0.0125132
138.79999999999998,-0.012548899999999998
139.27999999999997,-0.0120847
139.76000000000002,-0.0127274
140.24,-0.0121919
140.72,-0.0120133
141.2,-0.0125132
141.67999999999998,-0.0121205
142.16000000000003,-0.0120847
142.64000000000001,-0.0128346
143.12,-0.0126203
143.6,-0.0128346
144.07999999999998,-0.0124775
144.56,-0.0125132
145.04000000000002,-0.0122633
145.52,-0.0119419
146.0,-0.012227600000000002
146.48,-0.0123704
146.96,-0.0121919
147.44,-0.011977600000000001
147.92000000000002,-0.0114063
148.4,-0.0120847
148.88,-0.0127632
149.35999999999999,-0.0126203
149.84,-0.0129774
150.32,-0.0124775
150.8,-0.0125846
151.28,-0.012656
151.76,-0.0128703
152.24,-0.012048999999999999
152.72,-0.0127632
153.2,-0.012227600000000002
153.68,-0.0121562
154.16,-0.0124775
154.64000000000001,-0.012299
155.12,-0.012656
155.6,-0.0129774
156.07999999999998,-0.0131916
156.56,-0.0124418
157.04000000000002,-0.0116563
157.52,-0.011870499999999999
158.0,-0.011584899999999999
158.48,-0.0122633
158.95999999999998,-0.0119419
159.44,-0.0120847
159.92000000000002,-0.0118348
160.4,-0.0118348
160.88,-0.0118348
161.35999999999999,-0.0121562
161.83999999999997,-0.0117277
162.32000000000002,-0.0121562
162.8,-0.0121205
163.28,-0.012227600000000002
163.76,-0.012048999999999999
164.23999999999998,-0.012048999999999999
164.72,-0.0118348
165.20000000000002,-0.0116206
165.68,-0.0114063
166.16,-0.0120133
166.64,-0.011870499999999999
167.12,-0.0120847
167.6,-0.0128703
168.08,-0.012656
168.56,-0.012656
169.04,-0.0130845
169.51999999999998,-0.0123347
170.0,-0.0121919
170.48000000000002,-0.0126917
170.96,-0.0119062
171.44,-0.011692000000000001
171.92,-0.0121562
172.4,-0.0121562
172.88,-0.0126203
173.36,-0.0131916
173.84,-0.0129774
174.32,-0.013227299999999999
174.8,-0.0134059
175.28,-0.0126203
175.76,-0.012048999999999999
176.24,-0.011870499999999999
176.72,-0.0118348
177.20000000000002,-0.0117634
177.68,-0.0117277
178.16,-0.0126203
178.64,-0.0122633
179.12,-0.012656
179.6,-0.012906
180.08,-0.0125846
180.56,-0.0127632
181.04,-0.0125132
181.51999999999998,-0.0121562
182.0,-0.0118348
182.48000000000002,-0.0117277
182.96,-0.0119419
183.44,-0.0121205
183.92,-0.0120133
184.39999999999998,-0.0124775
184.88000000000002,-0.0123347
185.36,-0.0125132
185.84,-0.0121919
186.32,-0.0127274
186.79999999999998,-0.0122633
187.28,-0.0118348
187.76000000000002,-0.0121205
188.24,-0.0126917
188.72,-0.0122633
189.2,-0.011870499999999999
189.67999999999998,-0.0120133
190.16,-0.0120133
190.64000000000001,-0.0127632
191.12,-0.0128703
191.6,-0.013262999999999999
192.07999999999998,-0.012656
192.56,-0.0124418
193.04,-0.0126203
193.52,-0.0124418
194.0,-0.0123347
194.48,-0.0124775
194.96,-0.0120133
195.44,-0.012656
195.92,-0.0127632
196.4,-0.012656
196.88,-0.0131916
197.36,-0.013512999999999999
197.84,-0.012798899999999998
198.32,-0.0124775
198.8,-0.0126917
199.28,-0.0123704
199.76,-0.0126203
200.24,-0.0125132
200.72,-0.0123347
201.2,-0.0129774
201.68,-0.0130845
202.16,-0.0128703
202.64000000000001,-0.0132987
203.12,-0.0136201
203.6,-0.0128703
204.07999999999998,-0.0128703
204.56,-0.0130488
205.04000000000002,-0.013262999999999999
205.52,-0.0129417
206.0,-0.0126917
206.48,-0.0129774
206.95999999999998,-0.012299
207.44,-0.0126917
207.92000000000002,-0.0128346
208.4,-0.0127632
208.88,-0.0128346
209.35999999999999,-0.013227299999999999
209.83999999999997,-0.0130845
210.32000000000002,-0.0131202
210.8,-0.0132987
211.28,-0.0134059
211.76,-0.013941399999999998
212.23999999999998,-0.0135844
212.72,-0.012656
213.20000000000002,-0.0130845
213.68,-0.013512999999999999
214.16,-0.0128346
214.64,-0.0132987
215.12,-0.013691499999999999
215.6,-0.013834299999999999
216.08,-0.013727200000000002
216.56,-0.013977100000000001
217.04,-0.0136558
217.52,-0.0131916
218.0,-0.0130131
218.48,-0.0133701
218.96,-0.0130131
219.44,-0.0134416
219.92,-0.0135844
220.4,-0.0135844
220.88,-0.014012799999999999
221.35999999999999,-0.014119999999999999
221.84,-0.014012799999999999
222.32,-0.014619799999999999
222.8,-0.013941399999999998
223.28,-0.0134416
223.76,-0.0136558
224.24,-0.0135844
224.72,-0.0134059
225.20000000000002,-0.013905700000000002
225.68,-0.0137629
226.16,-0.013905700000000002
226.64,-0.0149055
227.12,-0.014869799999999997
227.6,-0.014477
228.08,-0.014976900000000001
228.56,-0.014334200000000002
229.04,-0.014155700000000002
229.51999999999998,-0.014334200000000002
230.0,-0.013941399999999998
230.48000000000002,-0.013869999999999999
230.96,-0.014227100000000001
231.44,-0.014119999999999999
231.92,-0.014619799999999999
232.39999999999998,-0.014619799999999999
232.88000000000002,-0.014798400000000001
233.36,-0.014834100000000001
233.84,-0.014548400000000001
234.32,-0.0151911
234.79999999999998,-0.014976900000000001
235.28,-0.014441299999999999
235.76000000000002,-0.014012799999999999
236.24,-0.0134773
236.72,-0.014119999999999999
237.2,-0.014119999999999999
237.68,-0.0140843
238.16,-0.014834100000000001
238.64000000000001,-0.0149412
239.12,-0.0147627
239.6,-0.014512700000000002
240.07999999999998,-0.0146555
240.56,-0.014334200000000002
241.04,-0.013905700000000002
241.52,-0.014262799999999999
242.0,-0.014334200000000002
242.48,-0.0134773
242.96,-0.014012799999999999
243.44,-0.014477
243.92,-0.014512700000000002
244.4,-0.014119999999999999
244.88,-0.0146555
245.36,-0.0140843
245.84,-0.013977100000000001
246.32000000000002,-0.014191399999999998
246.79999999999998,-0.014334200000000002
247.28,-0.014012799999999999
247.76,-0.014405600000000001
248.24,-0.013512999999999999
248.72000000000003,-0.014262799999999999
249.2,-0.013941399999999998
249.68,-0.014119999999999999
250.15999999999997,-0.014227100000000001
250.64000000000001,-0.014155700000000002
251.11999999999998,-0.013727200000000002
251.6,-0.013834299999999999
252.08,-0.013834299999999999
252.55999999999997,-0.013941399999999998
253.04000000000002,-0.014119999999999999
253.51999999999998,-0.0137986
254.0,-0.0137629
254.48000000000002,-0.013869999999999999
254.95999999999998,-0.013512999999999999
255.44000000000003,-0.0129417
255.92,-0.0131916
256.4,-0.0127632
256.88,-0.0130845
257.36,-0.0121919
257.84000000000003,-0.0125132
258.32,-0.0121205
258.8,-0.011584899999999999
259.28,-0.0117991
259.76,-0.0125132
260.24,-0.0117634
260.71999999999997,-0.012906
261.2,-0.0129774
261.68,-0.0128346
262.16,-0.0129417
262.64000000000004,-0.012798899999999998
263.12,-0.0129417
263.6,-0.0127632
264.08,-0.0121205
264.56,-0.0120847
265.03999999999996,-0.012406100000000002
265.52,-0.0120847
266.0,-0.0117634
266.47999999999996,-0.0124775
266.96000000000004,-0.0123704
267.44,-0.0127274
267.92,-0.012656
268.40000000000003,-0.011977600000000001
268.88,-0.012406100000000002
269.36,-0.0122633
269.84,-0.0125132
270.32,-0.0125846
270.79999999999995,-0.012656
271.28,-0.0133701
271.76,-0.0129417
272.24,-0.013262999999999999
272.72,-0.0127632
273.2,-0.0125846
273.68,-0.012656
274.16,-0.0124775
274.64,-0.012798899999999998
275.12,-0.012798899999999998
275.59999999999997,-0.0130845
276.08,-0.012798899999999998
276.55999999999995,-0.012798899999999998
277.04,-0.0131559
277.52000000000004,-0.0128703
278.0,-0.0128703
278.48,-0.0137986
278.96,-0.0137629
279.44,-0.013512999999999999
279.92,-0.013869999999999999
280.4,-0.014012799999999999
280.88,-0.0137629
281.35999999999996,-0.013869999999999999
281.84000000000003,-0.014012799999999999
282.32000000000005,-0.013512999999999999
282.8,-0.0134773
283.28000000000003,-0.0137629
283.76,-0.0134059
284.24,-0.0134059
284.71999999999997,-0.014119999999999999
285.2,-0.014227100000000001
285.68,-0.0140843
286.15999999999997,-0.014191399999999998
286.64,-0.014227100000000001
287.12,-0.013834299999999999
287.6,-0.0136558
288.08000000000004,-0.0135844
288.56,-0.014334200000000002
289.04,-0.014441299999999999
289.52,-0.014548400000000001
290.0,-0.0149412
290.47999999999996,-0.0151197
290.96,-0.0154768
291.44,-0.0154054
291.92,-0.015334
292.40000000000003,-0.015334
292.88,-0.0151554
293.36,-0.0154768
293.84000000000003,-0.014834100000000001
294.32,-0.014834100000000001
294.8,-0.0154768
295.28,-0.0155839
295.76,-0.0155482
296.23999999999995,-0.015691
296.71999999999997,-0.0158338
297.20000000000005,-0.015691
297.68,-0.0164408
298.16,-0.0160124
298.64,-0.0160124
299.12,-0.0155839
299.6,-0.0157981
300.08,-0.0153697
300.56,-0.0153697
301.03999999999996,-0.0154768
301.52,-0.0155482
302.0,-0.0157624
302.48,-0.0166551
302.96000000000004,-0.0161195
303.44,-0.0163694
303.92,-0.015869499999999998
304.4,-0.0156553
304.88,-0.0155482
305.36,-0.0157624
305.84,-0.0152982
306.32,-0.0150483
306.79999999999995,-0.0159052
307.28000000000003,-0.015691
307.76000000000005,-0.0162266
308.24,-0.0164051
308.72,-0.0164408
309.2,-0.0159409
309.68,-0.0166551
310.15999999999997,-0.0157981
310.64,-0.0159052
311.12,-0.0157267
311.59999999999997,-0.015691
312.08000000000004,-0.015619599999999999
312.56,-0.015619599999999999
313.04,-0.0157981
313.52000000000004,-0.0162623
314.0,-0.016619400000000003
314.48,-0.0164051
314.96,-0.0158338
315.44,-0.0157981
315.91999999999996,-0.0152625
316.4,-0.014727
316.88,-0.0151197
317.36,-0.014691299999999997
317.84000000000003,-0.014834100000000001
318.32,-0.0155482
318.8,-0.014976900000000001
319.28000000000003,-0.0154054
319.76,-0.0154411
320.24,-0.014727
320.71999999999997,-0.013834299999999999
321.2,-0.014869799999999997
321.67999999999995,-0.014334200000000002
322.16,-0.014262799999999999
322.64000000000004,-0.014619799999999999
323.12,-0.014727
323.6,-0.0146555
324.08,-0.014691299999999997
324.56,-0.013905700000000002
325.04,-0.014227100000000001
325.52,-0.014369899999999998
326.0,-0.014369899999999998
326.47999999999996,-0.0146555
326.96,-0.014298500000000002
327.44,-0.014119999999999999
327.92,-0.014191399999999998
328.40000000000003,-0.014119999999999999
328.88,-0.014119999999999999
329.36,-0.013941399999999998
329.84,-0.0131559
330.32,-0.013834299999999999
330.8,-0.013227299999999999
331.28,-0.0130845
331.76,-0.013227299999999999
332.24,-0.012906
332.72,-0.0133701
333.2,-0.0134416
333.68,-0.0135844
334.16,-0.013905700000000002
334.64,-0.013941399999999998
335.12,-0.013869999999999999
335.59999999999997,-0.0140486
336.08,-0.013512999999999999
336.56,-0.0136201
337.03999999999996,-0.013262999999999999
337.52000000000004,-0.0131916
338.0,-0.0134773
338.48,-0.0131916
338.96000000000004,-0.0136201
339.44,-0.0133701
339.92,-0.013262999999999999
340.4,-0.013227299999999999
340.88,-0.0130488
341.35999999999996,-0.0123704
341.84,-0.0127632
342.32,-0.0129417
342.8,-0.0126917
343.28000000000003,-0.0126203
343.76,-0.0134059
344.24,-0.0131202
344.72,-0.0128346
345.2,-0.0132987
345.68,-0.0130131
346.15999999999997,-0.0127632
346.64,-0.013227299999999999
347.11999999999995,-0.012656
347.6,-0.0131559
348.08000000000004,-0.0128703
348.56,-0.0130488
349.04,-0.0135844
349.52,-0.0135487
350.0,-0.0130488
350.48,-0.0131202
350.96,-0.013512999999999999
351.44,-0.0134773
351.91999999999996,-0.0130845
352.40000000000003,-0.0130845
352.88,-0.0132987
353.36,-0.0130845
353.84000000000003,-0.013262999999999999
354.32,-0.0125132
354.8,-0.0129774
355.28,-0.0131559
355.76,-0.0126203
356.24,-0.0130845
356.71999999999997,-0.0133344
357.2,-0.0134059
357.68,-0.0132987
358.16,-0.012656
358.64,-0.0127274
359.12,-0.0123347
359.6,-0.0126203
360.08,-0.012798899999999998
360.56,-0.013227299999999999
361.03999999999996,-0.0130845
361.52,-0.0132987
362.0,-0.0130131
362.48,-0.013512999999999999
362.96000000000004,-0.0125132
363.44,-0.0125846
363.92,-0.012048999999999999
364.40000000000003,-0.0124418
364.88,-0.0119062
365.36,-0.0119419
365.84,-0.012548899999999998
366.32,-0.0123704
366.79999999999995,-0.0129774
367.28,-0.0131202
367.76000000000005,-0.012406100000000002
368.24,-0.0121562
368.72,-0.012548899999999998
369.2,-0.0123704
369.68,-0.011870499999999999
370.16,-0.0120133
370.64,-0.0118348
371.12,-0.0114063
371.59999999999997,-0.0111921
372.08,-0.0122633
372.56,-0.012798899999999998
373.04,-0.013512999999999999
373.52000000000004,-0.013834299999999999
374.0,-0.0130131
374.48,-0.0126917
374.96,-0.0119419
375.44,-0.0107993
375.92,-0.0108708
376.4,-0.010478
376.88,-0.0105851
377.35999999999996,-0.010977899999999999
377.84000000000003,-0.011513500000000001
378.32,-0.0119062
378.8,-0.0117277
379.28000000000003,-0.0123704
379.76,-0.011692000000000001
380.24,-0.0118348
380.71999999999997,-0.0114063
381.2,-0.0114063
381.68,-0.010942200000000001
382.15999999999997,-0.011156399999999999
382.64000000000004,-0.0106922
383.12,-0.011263500000000001
383.6,-0.0116563
384.08,-0.0116563
384.56,-0.0114063
385.04,-0.0114778
385.52,-0.0111921
386.0,-0.011334899999999998
386.47999999999996,-0.0112992
386.96,-0.011513500000000001
387.44,-0.011334899999999998
387.92,-0.011263500000000001
388.40000000000003,-0.010977899999999999
388.88,-0.011692000000000001
389.36,-0.011977600000000001
389.84,-0.012227600000000002
390.32,-0.0111921
390.8,-0.0120847
391.28,-0.0116206
391.76,-0.0117634
392.23999999999995,-0.0114778
392.72,-0.0119419
393.20000000000005,-0.0116206
393.68,-0.0117277
394.16,-0.011513500000000001
394.64,-0.0117277
395.12,-0.0117277
395.6,-0.0113706
396.08,-0.0112992
396.56,-0.010977899999999999
397.03999999999996,-0.011442
397.52,-0.011977600000000001
398.0,-0.0117634
398.48,-0.012048999999999999
398.96000000000004,-0.0123704
399.44,-0.0125132
399.92,-0.0130131
400.4,-0.0125846
400.88,-0.0121205
401.36,-0.0119419
401.84,-0.0121562
402.32,-0.0117277
402.8,-0.0119062
403.28000000000003,-0.0113706
403.76,-0.0123347
404.24,-0.012227600000000002
404.72,-0.0122633
405.2,-0.012227600000000002
405.68,-0.0128346
406.15999999999997,-0.012548899999999998
406.64,-0.0122633
407.12,-0.012406100000000002
407.59999999999997,-0.0120133
408.08000000000004,-0.0120847
408.56,-0.0125846
409.04,-0.0124775
409.52,-0.0117277
410.0,-0.0120847
410.48,-0.0121562
410.96,-0.0121562
411.44,-0.0123704
411.91999999999996,-0.011977600000000001
412.4,-0.0121562
412.88,-0.011977600000000001
413.36,-0.0118348
413.84000000000003,-0.011513500000000001
414.32,-0.0118348
414.8,-0.0119419
415.28,-0.011870499999999999
415.76,-0.0120847
416.24,-0.0119419
416.71999999999997,-0.0120847
417.2,-0.0120847
417.67999999999995,-0.0121562
418.16,-0.011584899999999999
418.64000000000004,-0.011870499999999999
419.12,-0.0119419
419.6,-0.0111207
420.08,-0.0111921
420.56,-0.010942200000000001
421.04,-0.0111207
421.52,-0.0114063
422.0,-0.011870499999999999
422.47999999999996,-0.0113706
422.96000000000004,-0.0113706
423.44,-0.0111207
423.92,-0.0110136
424.40000000000003,-0.0107993
424.88,-0.010442299999999998
425.36,-0.0106565
425.84,-0.0106208
426.32,-0.011263500000000001
426.8,-0.0110493
427.28,-0.011513500000000001
427.76,-0.0116563
428.24,-0.0110493
428.72,-0.011156399999999999
429.2,-0.011156399999999999
429.68,-0.0108708
430.16,-0.0107993
430.64,-0.0111921
431.12,-0.0116206
431.59999999999997,-0.0115492
432.08,-0.0119062
432.56,-0.0115492
433.04,-0.0119419
433.52000000000004,-0.0115492
434.0,-0.0114778
434.48,-0.0112992
434.96,-0.0117277
435.44,-0.0117277
435.92,-0.0116563
436.4,-0.0111921
436.88,-0.011692000000000001
437.35999999999996,-0.0120133
437.84,-0.0125846
438.32000000000005,-0.0122633
438.8,-0.0121205
439.28000000000003,-0.012048999999999999
439.76,-0.0120133
440.24,-0.0119419
440.71999999999997,-0.011870499999999999
441.2,-0.012656
441.68,-0.0125846
442.15999999999997,-0.0131916
442.64,-0.0131559
443.12,-0.012656
443.6,-0.0130488
444.08000000000004,-0.012906
444.56,-0.0123347
445.04,-0.0131559
445.52,-0.013262999999999999
446.0,-0.013512999999999999
446.48,-0.0137986
446.96,-0.013905700000000002
447.44,-0.0133344
447.91999999999996,-0.0133344
448.40000000000003,-0.0137629
448.88,-0.0137986
449.36,-0.0137629
449.84000000000003,-0.014012799999999999
450.32,-0.013691499999999999
450.8,-0.0135844
451.28,-0.013512999999999999
451.76,-0.0135844
452.24,-0.0132987
452.71999999999997,-0.014191399999999998
453.2,-0.013691499999999999
453.68,-0.0137629
454.16,-0.013977100000000001
454.64,-0.014298500000000002
455.12,-0.0137629
455.6,-0.014191399999999998
456.08,-0.013834299999999999
456.56,-0.013977100000000001
457.03999999999996,-0.0137986
457.52,-0.014584100000000001
458.0,-0.014119999999999999
458.48,-0.014369899999999998
458.96000000000004,-0.013727200000000002
459.44,-0.0137629
459.92,-0.0135487
460.4,-0.014441299999999999
460.88,-0.014262799999999999
461.36,-0.014798400000000001
461.84,-0.0150483
462.32,-0.014691299999999997
462.79999999999995,-0.014548400000000001
463.28000000000003,-0.014548400000000001
463.76000000000005,-0.014155700000000002
464.24,-0.014191399999999998
464.72,-0.014441299999999999
465.2,-0.014369899999999998
465.68,-0.0146555
466.15999999999997,-0.014976900000000001
466.64,-0.0152625
467.12,-0.0149412
467.59999999999997,-0.0151911
468.08,-0.0151197
468.56,-0.0152982
469.04,-0.0153697
469.52000000000004,-0.014976900000000001
470.0,-0.0146555
470.48,-0.0150483
470.96,-0.014584100000000001
471.44,-0.014191399999999998
471.91999999999996,-0.0152625
472.4,-0.0155125
472.88,-0.014691299999999997
473.36,-0.0152625
473.84000000000003,-0.0160124
474.32,-0.0155839
474.8,-0.0155125
475.28000000000003,-0.0154054
475.76,-0.0150483
476.24,-0.0154411
476.71999999999997,-0.0151554
477.2,-0.0151554
477.68,-0.0149412
478.15999999999997,-0.0152982
478.64000000000004,-0.014869799999999997
479.12,-0.0150483
479.6,-0.0151197
480.08,-0.015084
480.56,-0.0149412
481.04,-0.014727
481.52,-0.015084
482.0,-0.014976900000000001
482.47999999999996,-0.0155125
482.96,-0.014727
483.44,-0.0146555
483.92,-0.014869799999999997
484.40000000000003,-0.014869799999999997
484.88,-0.014798400000000001
485.36,-0.0151197
485.84,-0.0152625
486.32,-0.014976900000000001
486.8,-0.014869799999999997
487.28,-0.014619799999999999
487.76,-0.014976900000000001
488.23999999999995,-0.0151911
488.72,-0.0152982
489.20000000000005,-0.0152625
489.68,-0.0149412
490.16,-0.0155482
490.64000000000004,-0.014976900000000001
491.12,-0.0157624
491.59999999999997,-0.0154411
492.08000000000004,-0.0150483
492.56,-0.0153697
493.03999999999996,-0.0154768
493.52,-0.0152982
494.00000000000006,-0.0158338
494.48,-0.0155839
494.96,-0.0154054
495.44000000000005,-0.0157981
495.92,-0.015869499999999998
496.4,-0.015691
496.87999999999994,-0.0160481
497.36,-0.0152625
497.84,-0.0157267
498.31999999999994,-0.014798400000000001
498.80000000000007,-0.015084
499.28000000000003,-0.015869499999999998
499.76,-0.0161195
500.23999999999995,-0.0152625
500.72,-0.0154054
501.2,-0.0152982
501.67999999999995,-0.0159409
502.16,-0.0155482
502.64,-0.014976900000000001
503.11999999999995,-0.0151554
503.6,-0.015691
504.08000000000004,-0.0154768
504.56,-0.015084
505.03999999999996,-0.0154411
505.52000000000004,-0.015691
506.0,-0.0155125
506.47999999999996,-0.0151911
506.96000000000004,-0.015084
507.44,-0.015334
507.91999999999996,-0.0154768
508.4,-0.015334
508.88000000000005,-0.0152982
509.36,-0.015619599999999999
509.84,-0.015084
510.32000000000005,-0.0151911
510.8,-0.0154054
511.28,-0.0152625
511.76000000000005,-0.015334
512.24,-0.0151554
512.72,-0.0151911
513.1999999999999,-0.0152982
513.6800000000001,-0.014834100000000001
514.16,-0.0149412
514.64,-0.0150483
515.12,-0.0151197
515.6,-0.014691299999999997
516.0799999999999,-0.0149412
516.56,-0.0151554
517.0400000000001,-0.015334
517.52,-0.014976900000000001
518.0,-0.015084
518.48,-0.014976900000000001
518.96,-0.0147627
519.4399999999999,-0.015012600000000001
519.92,-0.0153697
520.4,-0.0152625
520.88,-0.0154768
521.36,-0.0155839
521.84,-0.0158338
522.32,-0.0159052
522.8,-0.0150483
523.2800000000001,-0.0153697
523.76,-0.0149412
524.24,-0.0152268
524.7199999999999,-0.0155482
525.2,-0.0157624
525.68,-0.0159767
526.16,-0.0162623
526.6400000000001,-0.0160124
527.12,-0.016190899999999998
527.6,-0.0160838
528.0799999999999,-0.0158338
528.5600000000001,-0.0156553
529.04,-0.015691
529.52,-0.0151197
530.0,-0.015619599999999999
530.48,-0.0155125
530.9599999999999,-0.015869499999999998
531.44,-0.0155839
531.9200000000001,-0.0155482
532.4,-0.016333700000000003
532.88,-0.016619400000000003
533.36,-0.016976400000000003
533.84,-0.0162266
534.3199999999999,-0.016333700000000003
534.8000000000001,-0.016298
535.28,-0.0159052
535.76,-0.0165479
536.24,-0.016619400000000003
536.72,-0.0164051
537.2,-0.0163694
537.68,-0.0160481
538.1600000000001,-0.016583599999999997
538.64,-0.016869299999999997
539.12,-0.0167979
539.5999999999999,-0.0161552
540.08,-0.0159767
540.56,-0.0162623
541.04,-0.015691
541.52,-0.0161195
542.0,-0.0157624
542.48,-0.0159767
542.96,-0.0162266
543.44,-0.0160481
543.92,-0.0157981
544.4,-0.016333700000000003
544.88,-0.0166908
545.36,-0.0159052
545.8399999999999,-0.0162266
546.32,-0.016333700000000003
546.8000000000001,-0.0159052
547.28,-0.0161552
547.76,-0.016333700000000003
548.24,-0.0155125
548.72,-0.0161195
549.1999999999999,-0.016298
549.6800000000001,-0.0154768
550.16,-0.0157267
550.64,-0.0155839
551.1199999999999,-0.015691
551.6,-0.0159409
552.08,-0.0160838
552.56,-0.0156553
553.0400000000001,-0.0159409
553.52,-0.0164051
554.0,-0.0154411
554.48,-0.0155125
554.96,-0.0159052
555.4399999999999,-0.015691
555.92,-0.0156553
556.4,-0.015691
556.88,-0.0160838
557.36,-0.0162623
557.84,-0.0164051
558.32,-0.016333700000000003
558.8,-0.0163694
559.28,-0.0160481
559.76,-0.0162623
560.24,-0.0160124
560.7199999999999,-0.0157981
561.2,-0.0155482
561.6800000000001,-0.0154768
562.16,-0.0159052
562.6400000000001,-0.0160481
563.12,-0.0160124
563.6,-0.0165122
564.0799999999999,-0.0161195
564.5600000000001,-0.016333700000000003
565.04,-0.0160124
565.52,-0.0164408
566.0,-0.0164408
566.48,-0.015084
